FRC,Dose,Conductivity,Temperature,pH,DO,Turbidity,ORP
0.26,22,1.305,18.9,7.69,8.3,6.45,435
0.32,22,1.298,18.9,7.72,8.4,8.52,442
1.03,23,1.355,18.9,7.67,8.2,7.24,515
0.85,23,1.326,19.1,7.64,8.4,6.9,503
1.14,23.5,1.316,19.8,7.69,8.3,7.74,508
1.2,23.5,1.322,19.8,7.71,8.1,5.23,518
1.37,24,1.332,19.8,7.81,8.4,3.79,514
1.53,24,1.34,19.7,7.7,8.2,7.2,533
2.39,25,1.377,19.1,7.65,8.3,4.52,530
2.25,25,1.364,19.2,7.64,8.4,3.67,550